##TITLE= Mattson Instruments
##JCAMP_DX= 4.24
##OWNER= 
##ORIGIN= 
##DATA TYPE= INFRARED SPECTRUM
##YUNITS= % Transmittance
##XUNITS= 1/CM
##FIRSTX= 401.12365566
##FIRSTY= 76.47613525
##LASTX= 3999.66568195
##XFACTOR= 1.00000000
##YFACTOR= 0.00040070
##MINY= 50.38361358
##MAXY= 76.64342498
##DELTAX= 3.85695822
##NPOINTS= 934
##XYDATA= (X++(Y..Y))
401.12  190853 191207 191271 190931 190418 190348 
424.26  190781 191156 191262 191157 190671 189700 
447.40  188619 187931 187872 188402 189159 189691 
470.54  189907 190114 190457 190611 190245 189548 
493.69  189066 189038 189112 188777 188017 187380 
516.83  187406 188114 189031 189710 190039 190115 
539.97  190026 189814 189531 189263 189090 189043 
563.11  189086 189173 189277 189374 189450 189520 
586.25  189576 189570 189510 189470 189484 189512 
609.39  189489 189397 189316 189321 189303 189147 
632.54  188963 188625 187475 185456 183978 184420 
655.68  186110 187106 186588 185219 184029 183393 
678.82  183190 183450 184293 185220 185103 183382 
701.96  180993 179394 179116 179977 181823 184092 
725.10  185598 185306 182633 177400 170977 166684 
748.24  167129 171505 176936 181547 185015 187348 
771.39  188605 189162 189439 189588 189627 189470 
794.53  188986 188348 188020 188124 188196 187886 
817.67  187563 187676 187726 186698 184623 182836 
840.81  182442 183333 184883 186650 188192 189074 
863.95  189301 189251 189181 189156 189210 189299 
887.10  189305 189240 189239 189325 189383 189368 
910.24  189330 189280 189178 189036 188903 188741 
933.38  188427 187943 187454 187144 187021 186950 
956.52  186838 186725 186699 186787 186909 186936 
979.66  186784 186508 186279 186235 186347 186431 
1002.80  186304 185923 185391 184853 184375 183706 
1025.95  182252 179898 178010 178280 180041 180484 
1049.09  178585 176973 178266 181382 183506 183964 
1072.23  184070 184521 184919 185010 184945 184752 
1095.37  184423 184098 183766 183208 182470 182029 
1118.51  182284 183058 183826 184271 184419 184359 
1141.65  184078 183547 182801 181963 181157 180224 
1164.80  178657 176248 173699 172207 172496 174443 
1187.94  177348 180251 182341 183432 183896 184096 
1211.08  184160 184162 184113 183912 183610 183464 
1234.22  183492 183366 182932 182420 182069 181946 
1257.36  182088 182401 182560 182427 182342 182622 
1280.51  183045 183218 183138 183036 182950 182780 
1303.65  182530 182265 182027 181848 181706 181506 
1326.79  181199 180760 180086 179219 178446 177774 
1349.93  176810 175332 173225 169946 165209 160063 
1373.07  155948 152990 150201 147251 145278 146030 
1396.21  150169 156130 161205 164268 166330 168052 
1419.36  168507 167634 167546 169616 172970 175520 
1442.50  176149 175211 173590 172645 173557 175424 
1465.64  176671 177173 177565 178176 178640 178483 
1488.78  177712 177033 176769 176174 174730 173105 
1511.92  171975 170689 168514 165774 163473 161465 
1535.06  157802 149753 139985 135645 136732 139046 
1558.21  137199 130656 125737 125960 131175 137046 
1581.35  139248 139327 141187 146159 151922 155720 
1604.49  157109 157706 159524 163505 168673 172962 
1627.63  175596 177141 178244 179238 180022 180254 
1650.77  180117 180651 181841 182651 182704 182548 
1673.91  182743 182903 182671 182629 183165 183522 
1697.06  183012 182412 182982 183942 184163 183775 
1720.20  183940 184658 184953 184511 184051 184135 
1743.34  184308 184249 184223 184457 184767 184904 
1766.48  184763 184446 184300 184537 184882 184948 
1789.62  184677 184364 184259 184313 184388 184466 
1812.77  184627 184836 184845 184505 184139 184193 
1835.91  184472 184497 184267 184217 184470 184718 
1859.05  184730 184514 184234 184118 184248 184437 
1882.19  184469 184327 184170 184115 184115 184048 
1905.33  183878 183701 183610 183587 183595 183665 
1928.47  183792 183865 183783 183606 183505 183568 
1951.62  183709 183798 183802 183776 183759 183748 
1974.76  183748 183758 183737 183650 183533 183475 
1997.90  183493 183515 183485 183414 183337 183267 
2021.04  183210 183180 183164 183135 183084 183015 
2044.18  182949 182905 182879 182829 182742 182653 
2067.32  182592 182552 182528 182526 182520 182476 
2090.47  182413 182369 182331 182263 182187 182152 
2113.61  182149 182126 182066 182000 181940 181884 
2136.75  181850 181863 181909 181948 181966 181993 
2159.89  182044 182072 182036 181980 181973 181998 
2183.03  181975 181896 181834 181822 181817 181783 
2206.18  181740 181722 181710 181661 181579 181521 
2229.32  181514 181518 181500 181483 181483 181473 
2252.46  181425 181362 181329 181326 181317 181281 
2275.60  181247 181219 181191 181163 181135 181107 
2298.74  181079 181052 181024 180996 180968 180940 
2321.88  180912 180885 180857 180829 180801 180773 
2345.03  180745 180718 180690 180662 180634 180606 
2368.17  180578 180551 180523 180495 180467 180439 
2391.31  180411 180384 180356 180328 180300 180272 
2414.45  180244 180217 180189 180161 180133 180105 
2437.59  180077 180049 180022 179994 179966 179938 
2460.73  179910 179882 179855 179827 179799 179771 
2483.88  179743 179715 179688 179660 179632 179604 
2507.02  179576 179548 179521 179493 179465 179437 
2530.16  179409 179381 179311 179264 179238 179221 
2553.30  179217 179225 179222 179186 179132 179091 
2576.44  179068 179044 179011 178978 178953 178927 
2599.58  178885 178829 178788 178781 178792 178784 
2622.73  178741 178685 178646 178631 178617 178584 
2645.87  178539 178498 178450 178383 178324 178307 
2669.01  178301 178256 178179 178114 178054 177967 
2692.15  177869 177811 177792 177745 177625 177474 
2715.29  177360 177286 177212 177138 177103 177108 
2738.44  177105 177069 177023 176987 176939 176854 
2761.58  176750 176673 176631 176575 176481 176382 
2784.72  176295 176185 176047 175939 175873 175769 
2807.86  175567 175290 174995 174740 174580 174535 
2831.00  174550 174520 174299 173744 172822 171678 
2854.14  170567 169824 169816 170639 171851 172770 
2877.29  173104 173058 172872 172540 172001 171348 
2900.43  170756 170270 169796 169317 169044 169202 
2923.57  169715 170257 170575 170624 170477 170266 
2946.71  170175 170305 170567 170800 170965 171162 
2969.85  171522 172116 172893 173659 174199 174491 
2992.99  174689 174876 174987 174982 174960 174990 
3016.14  174981 174839 174615 174364 173966 173285 
3039.28  172497 172025 172098 172542 173044 173464 
3062.42  173824 174131 174353 174503 174641 174750 
3085.56  174722 174516 174260 174115 174099 174133 
3108.70  174172 174198 174147 173978 173751 173567 
3131.85  173455 173390 173342 173282 173196 173123 
3154.99  173104 173075 172929 172712 172609 172657 
3178.13  172662 172506 172347 172347 172370 172212 
3201.27  171963 171874 171923 171838 171551 171310 
3224.41  171276 171269 171081 170802 170646 170609 
3247.55  170518 170334 170185 170120 170049 169916 
3270.70  169770 169641 169503 169351 169203 169054 
3293.84  168906 168781 168656 168469 168254 168132 
3316.98  168103 168001 167742 167459 167292 167164 
3340.12  166910 166541 166220 166004 165748 165331 
3363.26  164872 164560 164355 164083 163748 163509 
3386.40  163349 163102 162772 162544 162462 162376 
3409.55  162204 162038 161971 161950 161869 161751 
3432.69  161721 161803 161858 161815 161800 161912 
3455.83  162046 162088 162114 162240 162434 162611 
3478.97  162771 162941 163122 163326 163558 163741 
3502.11  163814 163894 164158 164574 164917 165062 
3525.25  165143 165374 165749 166078 166247 166331 
3548.40  166504 166848 167228 167386 167248 167172 
3571.54  167544 168178 168618 168651 168453 168384 
3594.68  168605 169025 169444 169644 169536 169389 
3617.82  169608 170072 170236 170037 170207 170957 
3640.96  171540 171277 170434 170165 170804 171732 
3664.11  172288 171914 170733 170190 170864 171541 
3687.25  171314 170737 170887 171488 171654 171208 
3710.39  170763 170702 170783 170807 170746 170475 
3733.53  170022 169782 169850 169774 169453 169520 
3756.67  170141 170775 171099 171292 171564 171771 
3779.81  171759 171752 172032 172394 172308 171624 
3802.96  171099 171395 171949 171854 171043 170632 
3826.10  171158 171638 171180 170409 170660 171420 
3849.24  171401 170618 170468 171027 171133 170606 
3872.38  170459 170913 171103 170751 170638 171110 
3895.52  171413 170968 170435 170683 171278 171455 
3918.66  171219 171070 171100 171100 171132 171256 
3941.81  171272 171143 171150 171356 171497 171459 
3964.95  171403 171428 171481 171544 171646 171747 
3988.09  171760 171675 171584 171574 
##END= 
